rt,stimulus,response,trial_type,time_elapsed,task,question_order,wid
2470.0,"
      <div class=""instructions"">
        <p class=""center""> Welcome to the experiment. <br><br>

        Press any key to begin. <br><br>


        There may be a short delay as the experiment loads. 
        </p>
      </div>
      ",enter,html-keyboard-response,2473,,,w0e1d2bf
13222.900000035763,"
        <div class=""instructions"">
          <p>In this experiment, we are interested in understanding how people make similarity judgements. We will ask you to rate the similarity of different pictures. Each picture is a collection of 2-5 shapes of different shading, and will look something like this: <br>
          <img src='static/images/T_1.svg' style=""width:30%;padding:10px;""></img> 
          <br>
          In the <em>familiarization</em> phase, we will present the pictures <b> one at a time </b> so that you can become familiar with them. Simply observe the picture, and when the instruction appears press any key to move on to the next one.<br>
          <br>
          <br>
          In the <em>rating</em> phase, we will present the pictures <b> two at a time</b>, and ask you to rate the similarity of two pictures by clicking a button on the screen. <br>
          <br>
          <br>
          Press any key to continue.</p>
        </div>
      ",enter,html-keyboard-response,15701,,,w0e1d2bf
5316.699999988079,"
        <div class=""instructions"">
        <p>In this <em>familiarization</em> phase, we will show you the pictures that we will be using in this experiment <b> one at a time </b> so that you can become familiar with them. There will be 25 pictures. 
        <br>
        <br>
        Simply observe the picture, and when the instruction appears press any key to move on to the next one. <br>
        <br>
        Press any key to continue.</p>
        </div>
      ",enter,html-keyboard-response,21524,,,w0e1d2bf
,"
                <div class=""training"">
                <img src=""static/images/B_4.svg"" width=""45%""></img>
                <p> &nbsp </p>
                </div>",,html-keyboard-response,25046,training_watch,,w0e1d2bf
1402.6000000238419,"
                <div class=""training""> 
                <img src=""static/images/B_4.svg"" width=""45%""></img>
                <p> Press any key to continue. </p>
                </div>
                ",enter,html-keyboard-response,26452,training_response,,w0e1d2bf
,"
                <div class=""training"">
                <img src=""static/images/B_5.svg"" width=""45%""></img>
                <p> &nbsp </p>
                </div>",,html-keyboard-response,29464,training_watch,,w0e1d2bf
1258.7999999523163,"
                <div class=""training""> 
                <img src=""static/images/B_5.svg"" width=""45%""></img>
                <p> Press any key to continue. </p>
                </div>
                ",enter,html-keyboard-response,30725,training_response,,w0e1d2bf
,"
                <div class=""training"">
                <img src=""static/images/T_1.svg"" width=""45%""></img>
                <p> &nbsp </p>
                </div>",,html-keyboard-response,33730,training_watch,,w0e1d2bf
5021.599999964237,"
                <div class=""training""> 
                <img src=""static/images/T_1.svg"" width=""45%""></img>
                <p> Press any key to continue. </p>
                </div>
                ",enter,html-keyboard-response,38753,training_response,,w0e1d2bf
,"
                <div class=""training"">
                <img src=""static/images/C_2.svg"" width=""45%""></img>
                <p> &nbsp </p>
                </div>",,html-keyboard-response,41766,training_watch,,w0e1d2bf
1396.2999999523163,"
                <div class=""training""> 
                <img src=""static/images/C_2.svg"" width=""45%""></img>
                <p> Press any key to continue. </p>
                </div>
                ",enter,html-keyboard-response,43164,training_response,,w0e1d2bf
,"
                <div class=""training"">
                <img src=""static/images/C_4.svg"" width=""45%""></img>
                <p> &nbsp </p>
                </div>",,html-keyboard-response,46166,training_watch,,w0e1d2bf
639.3999999761581,"
                <div class=""training""> 
                <img src=""static/images/C_4.svg"" width=""45%""></img>
                <p> Press any key to continue. </p>
                </div>
                ",enter,html-keyboard-response,46807,training_response,,w0e1d2bf
,"
                <div class=""training"">
                <img src=""static/images/D_3.svg"" width=""45%""></img>
                <p> &nbsp </p>
                </div>",,html-keyboard-response,49810,training_watch,,w0e1d2bf
1496.8999999761581,"
                <div class=""training""> 
                <img src=""static/images/D_3.svg"" width=""45%""></img>
                <p> Press any key to continue. </p>
                </div>
                ",enter,html-keyboard-response,51308,training_response,,w0e1d2bf
,"
                <div class=""training"">
                <img src=""static/images/C_3.svg"" width=""45%""></img>
                <p> &nbsp </p>
                </div>",,html-keyboard-response,54317,training_watch,,w0e1d2bf
806.4000000357628,"
                <div class=""training""> 
                <img src=""static/images/C_3.svg"" width=""45%""></img>
                <p> Press any key to continue. </p>
                </div>
                ",enter,html-keyboard-response,55125,training_response,,w0e1d2bf
,"
                <div class=""training"">
                <img src=""static/images/D_4.svg"" width=""45%""></img>
                <p> &nbsp </p>
                </div>",,html-keyboard-response,58138,training_watch,,w0e1d2bf
564.0,"
                <div class=""training""> 
                <img src=""static/images/D_4.svg"" width=""45%""></img>
                <p> Press any key to continue. </p>
                </div>
                ",enter,html-keyboard-response,58704,training_response,,w0e1d2bf
,"
                <div class=""training"">
                <img src=""static/images/D_6.svg"" width=""45%""></img>
                <p> &nbsp </p>
                </div>",,html-keyboard-response,61706,training_watch,,w0e1d2bf
18631.69999998808,"
                <div class=""training""> 
                <img src=""static/images/D_6.svg"" width=""45%""></img>
                <p> Press any key to continue. </p>
                </div>
                ",enter,html-keyboard-response,80343,training_response,,w0e1d2bf
,"
                <div class=""training"">
                <img src=""static/images/A_2.svg"" width=""45%""></img>
                <p> &nbsp </p>
                </div>",,html-keyboard-response,83350,training_watch,,w0e1d2bf
1347.0,"
                <div class=""training""> 
                <img src=""static/images/A_2.svg"" width=""45%""></img>
                <p> Press any key to continue. </p>
                </div>
                ",enter,html-keyboard-response,84699,training_response,,w0e1d2bf
,"
                <div class=""training"">
                <img src=""static/images/T_3.svg"" width=""45%""></img>
                <p> &nbsp </p>
                </div>",,html-keyboard-response,87707,training_watch,,w0e1d2bf
1354.4000000357628,"
                <div class=""training""> 
                <img src=""static/images/T_3.svg"" width=""45%""></img>
                <p> Press any key to continue. </p>
                </div>
                ",enter,html-keyboard-response,89063,training_response,,w0e1d2bf
,"
                <div class=""training"">
                <img src=""static/images/A_3.svg"" width=""45%""></img>
                <p> &nbsp </p>
                </div>",,html-keyboard-response,92065,training_watch,,w0e1d2bf
1647.0999999642372,"
                <div class=""training""> 
                <img src=""static/images/A_3.svg"" width=""45%""></img>
                <p> Press any key to continue. </p>
                </div>
                ",enter,html-keyboard-response,93714,training_response,,w0e1d2bf
,"
                <div class=""training"">
                <img src=""static/images/T_5.svg"" width=""45%""></img>
                <p> &nbsp </p>
                </div>",,html-keyboard-response,96718,training_watch,,w0e1d2bf
542.1999999880791,"
                <div class=""training""> 
                <img src=""static/images/T_5.svg"" width=""45%""></img>
                <p> Press any key to continue. </p>
                </div>
                ",enter,html-keyboard-response,97262,training_response,,w0e1d2bf
,"
                <div class=""training"">
                <img src=""static/images/A_1.svg"" width=""45%""></img>
                <p> &nbsp </p>
                </div>",,html-keyboard-response,100271,training_watch,,w0e1d2bf
2615.800000011921,"
                <div class=""training""> 
                <img src=""static/images/A_1.svg"" width=""45%""></img>
                <p> Press any key to continue. </p>
                </div>
                ",enter,html-keyboard-response,102889,training_response,,w0e1d2bf
,"
                <div class=""training"">
                <img src=""static/images/C_5.svg"" width=""45%""></img>
                <p> &nbsp </p>
                </div>",,html-keyboard-response,105894,training_watch,,w0e1d2bf
838.0,"
                <div class=""training""> 
                <img src=""static/images/C_5.svg"" width=""45%""></img>
                <p> Press any key to continue. </p>
                </div>
                ",enter,html-keyboard-response,106733,training_response,,w0e1d2bf
,"
                <div class=""training"">
                <img src=""static/images/A_6.svg"" width=""45%""></img>
                <p> &nbsp </p>
                </div>",,html-keyboard-response,109740,training_watch,,w0e1d2bf
920.1000000238419,"
                <div class=""training""> 
                <img src=""static/images/A_6.svg"" width=""45%""></img>
                <p> Press any key to continue. </p>
                </div>
                ",enter,html-keyboard-response,110661,training_response,,w0e1d2bf
,"
                <div class=""training"">
                <img src=""static/images/A_4.svg"" width=""45%""></img>
                <p> &nbsp </p>
                </div>",,html-keyboard-response,113670,training_watch,,w0e1d2bf
899.6999999880791,"
                <div class=""training""> 
                <img src=""static/images/A_4.svg"" width=""45%""></img>
                <p> Press any key to continue. </p>
                </div>
                ",enter,html-keyboard-response,114571,training_response,,w0e1d2bf
,"
                <div class=""training"">
                <img src=""static/images/D_1.svg"" width=""45%""></img>
                <p> &nbsp </p>
                </div>",,html-keyboard-response,117573,training_watch,,w0e1d2bf
676.2000000476837,"
                <div class=""training""> 
                <img src=""static/images/D_1.svg"" width=""45%""></img>
                <p> Press any key to continue. </p>
                </div>
                ",enter,html-keyboard-response,118251,training_response,,w0e1d2bf
,"
                <div class=""training"">
                <img src=""static/images/T_2.svg"" width=""45%""></img>
                <p> &nbsp </p>
                </div>",,html-keyboard-response,121255,training_watch,,w0e1d2bf
788.6999999880791,"
                <div class=""training""> 
                <img src=""static/images/T_2.svg"" width=""45%""></img>
                <p> Press any key to continue. </p>
                </div>
                ",enter,html-keyboard-response,122045,training_response,,w0e1d2bf
,"
                <div class=""training"">
                <img src=""static/images/B_2.svg"" width=""45%""></img>
                <p> &nbsp </p>
                </div>",,html-keyboard-response,125058,training_watch,,w0e1d2bf
1089.3999999761581,"
                <div class=""training""> 
                <img src=""static/images/B_2.svg"" width=""45%""></img>
                <p> Press any key to continue. </p>
                </div>
                ",enter,html-keyboard-response,126149,training_response,,w0e1d2bf
,"
                <div class=""training"">
                <img src=""static/images/D_5.svg"" width=""45%""></img>
                <p> &nbsp </p>
                </div>",,html-keyboard-response,129169,training_watch,,w0e1d2bf
1961.5999999642372,"
                <div class=""training""> 
                <img src=""static/images/D_5.svg"" width=""45%""></img>
                <p> Press any key to continue. </p>
                </div>
                ",enter,html-keyboard-response,131132,training_response,,w0e1d2bf
,"
                <div class=""training"">
                <img src=""static/images/T_4.svg"" width=""45%""></img>
                <p> &nbsp </p>
                </div>",,html-keyboard-response,134148,training_watch,,w0e1d2bf
3174.7000000476837,"
                <div class=""training""> 
                <img src=""static/images/T_4.svg"" width=""45%""></img>
                <p> Press any key to continue. </p>
                </div>
                ",enter,html-keyboard-response,137324,training_response,,w0e1d2bf
,"
                <div class=""training"">
                <img src=""static/images/B_3.svg"" width=""45%""></img>
                <p> &nbsp </p>
                </div>",,html-keyboard-response,140327,training_watch,,w0e1d2bf
629.8000000119209,"
                <div class=""training""> 
                <img src=""static/images/B_3.svg"" width=""45%""></img>
                <p> Press any key to continue. </p>
                </div>
                ",enter,html-keyboard-response,140959,training_response,,w0e1d2bf
,"
                <div class=""training"">
                <img src=""static/images/A_5.svg"" width=""45%""></img>
                <p> &nbsp </p>
                </div>",,html-keyboard-response,143969,training_watch,,w0e1d2bf
1302.1000000238419,"
                <div class=""training""> 
                <img src=""static/images/A_5.svg"" width=""45%""></img>
                <p> Press any key to continue. </p>
                </div>
                ",enter,html-keyboard-response,145273,training_response,,w0e1d2bf
,"
                <div class=""training"">
                <img src=""static/images/D_2.svg"" width=""45%""></img>
                <p> &nbsp </p>
                </div>",,html-keyboard-response,148290,training_watch,,w0e1d2bf
1289.1000000238419,"
                <div class=""training""> 
                <img src=""static/images/D_2.svg"" width=""45%""></img>
                <p> Press any key to continue. </p>
                </div>
                ",enter,html-keyboard-response,149580,training_response,,w0e1d2bf
9028.199999988079,"
        <div class=""instructions"">
        <p>In this <em>rating</em> phase, two pictures will appear in the center 
        of the screen at the same time.<br>
        <br>
        We will ask you to rate the similarity of the two pictures. When the instruction appears, click a button to record your rating. <br> <br>
        Click the ""1"" key if the pictures are not very similar
        <br> 
        Click the ""9"" key if the pictures are highly similar. <br> 
        Click the other number keys if the similarity is in between these. <br>
        <br>
        Press any key to continue.</p>
        </div>
      ",enter,html-keyboard-response,158610,,,w0e1d2bf
3468.899999976158,"
      <div class=""training""> You  have finished! Thank you. We have automatically recorded your Participant ID. 
      <br> <br>
      Press any key to advance to an annonymous survey, which we are using to collect demographic data. </div>
      ",enter,html-keyboard-response,370284,,,w0e1d2bf
8826.899999976158,"
      <div class=""training""> Thank you for finishing the survey! Your answers will help us develop these experiments. 
      <br> 
      <br>
      Press any key to finish. </div>
      ",enter,html-keyboard-response,397203,,,w0e1d2bf
2174.899999976158,"
      <div class=""instructions"">
        <p class=""center""> Welcome to the experiment. <br><br>

        Press any key to begin. <br><br>


        There may be a short delay as the experiment loads. 
        </p>
      </div>
      ", ,html-keyboard-response,2179,,,w1d1ffa4
19684.600000023842,"
        <div class=""instructions"">
          <p>In this experiment, we are interested in understanding how people make similarity judgements. We will ask you to rate the similarity of different pictures. Each picture is a collection of 2-5 shapes of different shading, and will look something like this: <br>
          <img src='static/images/T_1.svg' style=""width:30%;padding:10px;""></img> 
          <br>
          In the <em>familiarization</em> phase, we will present the pictures <b> one at a time </b> so that you can become familiar with them. Simply observe the picture, and when the instruction appears press any key to move on to the next one.<br>
          <br>
          <br>
          In the <em>rating</em> phase, we will present the pictures <b> two at a time</b>, and ask you to rate the similarity of two pictures by clicking a button on the screen. <br>
          <br>
          <br>
          Press any key to continue.</p>
        </div>
      ", ,html-keyboard-response,21867,,,w1d1ffa4
8647.5,"
        <div class=""instructions"">
        <p>In this <em>familiarization</em> phase, we will show you the pictures that we will be using in this experiment <b> one at a time </b> so that you can become familiar with them. There will be 25 pictures. 
        <br>
        <br>
        Simply observe the picture, and when the instruction appears press any key to move on to the next one. <br>
        <br>
        Press any key to continue.</p>
        </div>
      ", ,html-keyboard-response,31021,,,w1d1ffa4
,"
                <div class=""training"">
                <img src=""static/images/A_3.svg"" width=""45%""></img>
                <p> &nbsp </p>
                </div>",,html-keyboard-response,34528,training_watch,,w1d1ffa4
3754.2000000476837,"
                <div class=""training""> 
                <img src=""static/images/A_3.svg"" width=""45%""></img>
                <p> Press any key to continue. </p>
                </div>
                ", ,html-keyboard-response,38284,training_response,,w1d1ffa4
,"
                <div class=""training"">
                <img src=""static/images/B_3.svg"" width=""45%""></img>
                <p> &nbsp </p>
                </div>",,html-keyboard-response,41289,training_watch,,w1d1ffa4
1649.2000000476837,"
                <div class=""training""> 
                <img src=""static/images/B_3.svg"" width=""45%""></img>
                <p> Press any key to continue. </p>
                </div>
                ", ,html-keyboard-response,42941,training_response,,w1d1ffa4
,"
                <div class=""training"">
                <img src=""static/images/D_2.svg"" width=""45%""></img>
                <p> &nbsp </p>
                </div>",,html-keyboard-response,45945,training_watch,,w1d1ffa4
1266.7000000476837,"
                <div class=""training""> 
                <img src=""static/images/D_2.svg"" width=""45%""></img>
                <p> Press any key to continue. </p>
                </div>
                ", ,html-keyboard-response,47214,training_response,,w1d1ffa4
,"
                <div class=""training"">
                <img src=""static/images/B_2.svg"" width=""45%""></img>
                <p> &nbsp </p>
                </div>",,html-keyboard-response,50218,training_watch,,w1d1ffa4
1084.0,"
                <div class=""training""> 
                <img src=""static/images/B_2.svg"" width=""45%""></img>
                <p> Press any key to continue. </p>
                </div>
                ", ,html-keyboard-response,51305,training_response,,w1d1ffa4
,"
                <div class=""training"">
                <img src=""static/images/T_3.svg"" width=""45%""></img>
                <p> &nbsp </p>
                </div>",,html-keyboard-response,54309,training_watch,,w1d1ffa4
635.6999999284744,"
                <div class=""training""> 
                <img src=""static/images/T_3.svg"" width=""45%""></img>
                <p> Press any key to continue. </p>
                </div>
                ", ,html-keyboard-response,54947,training_response,,w1d1ffa4
,"
                <div class=""training"">
                <img src=""static/images/C_2.svg"" width=""45%""></img>
                <p> &nbsp </p>
                </div>",,html-keyboard-response,57949,training_watch,,w1d1ffa4
1225.3999999761581,"
                <div class=""training""> 
                <img src=""static/images/C_2.svg"" width=""45%""></img>
                <p> Press any key to continue. </p>
                </div>
                ", ,html-keyboard-response,59176,training_response,,w1d1ffa4
,"
                <div class=""training"">
                <img src=""static/images/A_2.svg"" width=""45%""></img>
                <p> &nbsp </p>
                </div>",,html-keyboard-response,62179,training_watch,,w1d1ffa4
1489.0,"
                <div class=""training""> 
                <img src=""static/images/A_2.svg"" width=""45%""></img>
                <p> Press any key to continue. </p>
                </div>
                ", ,html-keyboard-response,63671,training_response,,w1d1ffa4
,"
                <div class=""training"">
                <img src=""static/images/A_1.svg"" width=""45%""></img>
                <p> &nbsp </p>
                </div>",,html-keyboard-response,66675,training_watch,,w1d1ffa4
670.5,"
                <div class=""training""> 
                <img src=""static/images/A_1.svg"" width=""45%""></img>
                <p> Press any key to continue. </p>
                </div>
                ", ,html-keyboard-response,67349,training_response,,w1d1ffa4
,"
                <div class=""training"">
                <img src=""static/images/C_1.svg"" width=""45%""></img>
                <p> &nbsp </p>
                </div>",,html-keyboard-response,70353,training_watch,,w1d1ffa4
874.0999999046326,"
                <div class=""training""> 
                <img src=""static/images/C_1.svg"" width=""45%""></img>
                <p> Press any key to continue. </p>
                </div>
                ", ,html-keyboard-response,71230,training_response,,w1d1ffa4
,"
                <div class=""training"">
                <img src=""static/images/C_6.svg"" width=""45%""></img>
                <p> &nbsp </p>
                </div>",,html-keyboard-response,74233,training_watch,,w1d1ffa4
399.0,"
                <div class=""training""> 
                <img src=""static/images/C_6.svg"" width=""45%""></img>
                <p> Press any key to continue. </p>
                </div>
                ", ,html-keyboard-response,74635,training_response,,w1d1ffa4
,"
                <div class=""training"">
                <img src=""static/images/C_5.svg"" width=""45%""></img>
                <p> &nbsp </p>
                </div>",,html-keyboard-response,78150,training_watch,,w1d1ffa4
892.8999999761581,"
                <div class=""training""> 
                <img src=""static/images/C_5.svg"" width=""45%""></img>
                <p> Press any key to continue. </p>
                </div>
                ", ,html-keyboard-response,79045,training_response,,w1d1ffa4
,"
                <div class=""training"">
                <img src=""static/images/T_5.svg"" width=""45%""></img>
                <p> &nbsp </p>
                </div>",,html-keyboard-response,82049,training_watch,,w1d1ffa4
3818.3000000715256,"
                <div class=""training""> 
                <img src=""static/images/T_5.svg"" width=""45%""></img>
                <p> Press any key to continue. </p>
                </div>
                ", ,html-keyboard-response,85871,training_response,,w1d1ffa4
,"
                <div class=""training"">
                <img src=""static/images/A_6.svg"" width=""45%""></img>
                <p> &nbsp </p>
                </div>",,html-keyboard-response,88872,training_watch,,w1d1ffa4
1694.8999999761581,"
                <div class=""training""> 
                <img src=""static/images/A_6.svg"" width=""45%""></img>
                <p> Press any key to continue. </p>
                </div>
                ", ,html-keyboard-response,90570,training_response,,w1d1ffa4
,"
                <div class=""training"">
                <img src=""static/images/D_4.svg"" width=""45%""></img>
                <p> &nbsp </p>
                </div>",,html-keyboard-response,93576,training_watch,,w1d1ffa4
1062.0,"
                <div class=""training""> 
                <img src=""static/images/D_4.svg"" width=""45%""></img>
                <p> Press any key to continue. </p>
                </div>
                ", ,html-keyboard-response,94640,training_response,,w1d1ffa4
,"
                <div class=""training"">
                <img src=""static/images/D_1.svg"" width=""45%""></img>
                <p> &nbsp </p>
                </div>",,html-keyboard-response,97643,training_watch,,w1d1ffa4
884.5,"
                <div class=""training""> 
                <img src=""static/images/D_1.svg"" width=""45%""></img>
                <p> Press any key to continue. </p>
                </div>
                ", ,html-keyboard-response,98530,training_response,,w1d1ffa4
,"
                <div class=""training"">
                <img src=""static/images/T_2.svg"" width=""45%""></img>
                <p> &nbsp </p>
                </div>",,html-keyboard-response,101534,training_watch,,w1d1ffa4
766.1000000238419,"
                <div class=""training""> 
                <img src=""static/images/T_2.svg"" width=""45%""></img>
                <p> Press any key to continue. </p>
                </div>
                ", ,html-keyboard-response,102303,training_response,,w1d1ffa4
,"
                <div class=""training"">
                <img src=""static/images/B_5.svg"" width=""45%""></img>
                <p> &nbsp </p>
                </div>",,html-keyboard-response,105308,training_watch,,w1d1ffa4
390.5,"
                <div class=""training""> 
                <img src=""static/images/B_5.svg"" width=""45%""></img>
                <p> Press any key to continue. </p>
                </div>
                ", ,html-keyboard-response,105699,training_response,,w1d1ffa4
,"
                <div class=""training"">
                <img src=""static/images/D_6.svg"" width=""45%""></img>
                <p> &nbsp </p>
                </div>",,html-keyboard-response,108701,training_watch,,w1d1ffa4
1038.3000000715256,"
                <div class=""training""> 
                <img src=""static/images/D_6.svg"" width=""45%""></img>
                <p> Press any key to continue. </p>
                </div>
                ", ,html-keyboard-response,109741,training_response,,w1d1ffa4
,"
                <div class=""training"">
                <img src=""static/images/C_3.svg"" width=""45%""></img>
                <p> &nbsp </p>
                </div>",,html-keyboard-response,112745,training_watch,,w1d1ffa4
505.39999997615814,"
                <div class=""training""> 
                <img src=""static/images/C_3.svg"" width=""45%""></img>
                <p> Press any key to continue. </p>
                </div>
                ", ,html-keyboard-response,113254,training_response,,w1d1ffa4
,"
                <div class=""training"">
                <img src=""static/images/T_6.svg"" width=""45%""></img>
                <p> &nbsp </p>
                </div>",,html-keyboard-response,116257,training_watch,,w1d1ffa4
431.5,"
                <div class=""training""> 
                <img src=""static/images/T_6.svg"" width=""45%""></img>
                <p> Press any key to continue. </p>
                </div>
                ", ,html-keyboard-response,116690,training_response,,w1d1ffa4
,"
                <div class=""training"">
                <img src=""static/images/B_4.svg"" width=""45%""></img>
                <p> &nbsp </p>
                </div>",,html-keyboard-response,119693,training_watch,,w1d1ffa4
363.0,"
                <div class=""training""> 
                <img src=""static/images/B_4.svg"" width=""45%""></img>
                <p> Press any key to continue. </p>
                </div>
                ", ,html-keyboard-response,120059,training_response,,w1d1ffa4
,"
                <div class=""training"">
                <img src=""static/images/D_3.svg"" width=""45%""></img>
                <p> &nbsp </p>
                </div>",,html-keyboard-response,123062,training_watch,,w1d1ffa4
463.0,"
                <div class=""training""> 
                <img src=""static/images/D_3.svg"" width=""45%""></img>
                <p> Press any key to continue. </p>
                </div>
                ", ,html-keyboard-response,123527,training_response,,w1d1ffa4
,"
                <div class=""training"">
                <img src=""static/images/D_5.svg"" width=""45%""></img>
                <p> &nbsp </p>
                </div>",,html-keyboard-response,126531,training_watch,,w1d1ffa4
518.7000000476837,"
                <div class=""training""> 
                <img src=""static/images/D_5.svg"" width=""45%""></img>
                <p> Press any key to continue. </p>
                </div>
                ", ,html-keyboard-response,127053,training_response,,w1d1ffa4
,"
                <div class=""training"">
                <img src=""static/images/A_4.svg"" width=""45%""></img>
                <p> &nbsp </p>
                </div>",,html-keyboard-response,130057,training_watch,,w1d1ffa4
489.0,"
                <div class=""training""> 
                <img src=""static/images/A_4.svg"" width=""45%""></img>
                <p> Press any key to continue. </p>
                </div>
                ", ,html-keyboard-response,130549,training_response,,w1d1ffa4
,"
                <div class=""training"">
                <img src=""static/images/A_5.svg"" width=""45%""></img>
                <p> &nbsp </p>
                </div>",,html-keyboard-response,133553,training_watch,,w1d1ffa4
39.59999990463257,"
                <div class=""training""> 
                <img src=""static/images/A_5.svg"" width=""45%""></img>
                <p> Press any key to continue. </p>
                </div>
                ", ,html-keyboard-response,133595,training_response,,w1d1ffa4
20713.799999952316,"
        <div class=""instructions"">
        <p>In this <em>rating</em> phase, two pictures will appear in the center 
        of the screen at the same time.<br>
        <br>
        We will ask you to rate the similarity of the two pictures. When the instruction appears, click a button to record your rating. <br> <br>
        Click the ""1"" key if the pictures are not very similar
        <br> 
        Click the ""9"" key if the pictures are highly similar. <br> 
        Click the other number keys if the similarity is in between these. <br>
        <br>
        Press any key to continue.</p>
        </div>
      ", ,html-keyboard-response,154311,,,w1d1ffa4
24852.799999952316,"
      <div class=""training""> You  have finished! Thank you. We have automatically recorded your Participant ID. 
      <br> <br>
      Press any key to advance to an annonymous survey, which we are using to collect demographic data. </div>
      ", ,html-keyboard-response,296345,,,w1d1ffa4
1369.6000000238419,"
      <div class=""training""> Thank you for finishing the survey! Your answers will help us develop these experiments. 
      <br> 
      <br>
      Press any key to finish. </div>
      ", ,html-keyboard-response,313262,,,w1d1ffa4
2472.899999856949,"
      <div class=""instructions"">
        <p class=""center""> Welcome to the experiment. <br><br>

        Press any key to begin. <br><br>


        There may be a short delay as the experiment loads. 
        </p>
      </div>
      ", ,html-keyboard-response,2474,,,wb3a1943
66560.20000004768,"
        <div class=""instructions"">
          <p>In this experiment, we are interested in understanding how people make similarity judgements. We will ask you to rate the similarity of different pictures. Each picture is a collection of 2-5 shapes of different shading, and will look something like this: <br>
          <img src='static/images/T_1.svg' style=""width:30%;padding:10px;""></img> 
          <br>
          In the <em>familiarization</em> phase, we will present the pictures <b> one at a time </b> so that you can become familiar with them. Simply observe the picture, and when the instruction appears press any key to move on to the next one.<br>
          <br>
          <br>
          In the <em>rating</em> phase, we will present the pictures <b> two at a time</b>, and ask you to rate the similarity of two pictures by clicking a button on the screen. <br>
          <br>
          <br>
          Press any key to continue.</p>
        </div>
      ",arrowright,html-keyboard-response,69035,,,wb3a1943
8116.0,"
        <div class=""instructions"">
        <p>In this <em>familiarization</em> phase, we will show you the pictures that we will be using in this experiment <b> one at a time </b> so that you can become familiar with them. There will be 25 pictures. 
        <br>
        <br>
        Simply observe the picture, and when the instruction appears press any key to move on to the next one. <br>
        <br>
        Press any key to continue.</p>
        </div>
      ",arrowright,html-keyboard-response,77652,,,wb3a1943
,"
                <div class=""training"">
                <img src=""static/images/D_6.svg"" width=""45%""></img>
                <p> &nbsp </p>
                </div>",,html-keyboard-response,81159,training_watch,,wb3a1943
1507.0,"
                <div class=""training""> 
                <img src=""static/images/D_6.svg"" width=""45%""></img>
                <p> Press any key to continue. </p>
                </div>
                ",arrowright,html-keyboard-response,82668,training_response,,wb3a1943
,"
                <div class=""training"">
                <img src=""static/images/T_4.svg"" width=""45%""></img>
                <p> &nbsp </p>
                </div>",,html-keyboard-response,85670,training_watch,,wb3a1943
867.8000001907349,"
                <div class=""training""> 
                <img src=""static/images/T_4.svg"" width=""45%""></img>
                <p> Press any key to continue. </p>
                </div>
                ",arrowright,html-keyboard-response,86539,training_response,,wb3a1943
,"
                <div class=""training"">
                <img src=""static/images/B_4.svg"" width=""45%""></img>
                <p> &nbsp </p>
                </div>",,html-keyboard-response,89541,training_watch,,wb3a1943
349.7000000476837,"
                <div class=""training""> 
                <img src=""static/images/B_4.svg"" width=""45%""></img>
                <p> Press any key to continue. </p>
                </div>
                ",arrowright,html-keyboard-response,89891,training_response,,wb3a1943
,"
                <div class=""training"">
                <img src=""static/images/T_5.svg"" width=""45%""></img>
                <p> &nbsp </p>
                </div>",,html-keyboard-response,92892,training_watch,,wb3a1943
582.2000000476837,"
                <div class=""training""> 
                <img src=""static/images/T_5.svg"" width=""45%""></img>
                <p> Press any key to continue. </p>
                </div>
                ",arrowright,html-keyboard-response,93475,training_response,,wb3a1943
,"
                <div class=""training"">
                <img src=""static/images/T_1.svg"" width=""45%""></img>
                <p> &nbsp </p>
                </div>",,html-keyboard-response,96478,training_watch,,wb3a1943
628.5999999046326,"
                <div class=""training""> 
                <img src=""static/images/T_1.svg"" width=""45%""></img>
                <p> Press any key to continue. </p>
                </div>
                ",arrowright,html-keyboard-response,97107,training_response,,wb3a1943
,"
                <div class=""training"">
                <img src=""static/images/T_3.svg"" width=""45%""></img>
                <p> &nbsp </p>
                </div>",,html-keyboard-response,100109,training_watch,,wb3a1943
1941.5999999046326,"
                <div class=""training""> 
                <img src=""static/images/T_3.svg"" width=""45%""></img>
                <p> Press any key to continue. </p>
                </div>
                ",arrowright,html-keyboard-response,102051,training_response,,wb3a1943
,"
                <div class=""training"">
                <img src=""static/images/A_5.svg"" width=""45%""></img>
                <p> &nbsp </p>
                </div>",,html-keyboard-response,105053,training_watch,,wb3a1943
1357.5,"
                <div class=""training""> 
                <img src=""static/images/A_5.svg"" width=""45%""></img>
                <p> Press any key to continue. </p>
                </div>
                ",arrowright,html-keyboard-response,106411,training_response,,wb3a1943
,"
                <div class=""training"">
                <img src=""static/images/C_5.svg"" width=""45%""></img>
                <p> &nbsp </p>
                </div>",,html-keyboard-response,109413,training_watch,,wb3a1943
573.9000000953674,"
                <div class=""training""> 
                <img src=""static/images/C_5.svg"" width=""45%""></img>
                <p> Press any key to continue. </p>
                </div>
                ",arrowright,html-keyboard-response,109987,training_response,,wb3a1943
,"
                <div class=""training"">
                <img src=""static/images/A_3.svg"" width=""45%""></img>
                <p> &nbsp </p>
                </div>",,html-keyboard-response,112989,training_watch,,wb3a1943
1541.4000000953674,"
                <div class=""training""> 
                <img src=""static/images/A_3.svg"" width=""45%""></img>
                <p> Press any key to continue. </p>
                </div>
                ",arrowright,html-keyboard-response,114531,training_response,,wb3a1943
,"
                <div class=""training"">
                <img src=""static/images/C_2.svg"" width=""45%""></img>
                <p> &nbsp </p>
                </div>",,html-keyboard-response,117533,training_watch,,wb3a1943
1092.5,"
                <div class=""training""> 
                <img src=""static/images/C_2.svg"" width=""45%""></img>
                <p> Press any key to continue. </p>
                </div>
                ",arrowright,html-keyboard-response,118628,training_response,,wb3a1943
,"
                <div class=""training"">
                <img src=""static/images/B_3.svg"" width=""45%""></img>
                <p> &nbsp </p>
                </div>",,html-keyboard-response,121630,training_watch,,wb3a1943
1651.0999999046326,"
                <div class=""training""> 
                <img src=""static/images/B_3.svg"" width=""45%""></img>
                <p> Press any key to continue. </p>
                </div>
                ",arrowright,html-keyboard-response,123284,training_response,,wb3a1943
,"
                <div class=""training"">
                <img src=""static/images/B_2.svg"" width=""45%""></img>
                <p> &nbsp </p>
                </div>",,html-keyboard-response,126286,training_watch,,wb3a1943
1141.0,"
                <div class=""training""> 
                <img src=""static/images/B_2.svg"" width=""45%""></img>
                <p> Press any key to continue. </p>
                </div>
                ",arrowright,html-keyboard-response,127428,training_response,,wb3a1943
,"
                <div class=""training"">
                <img src=""static/images/A_6.svg"" width=""45%""></img>
                <p> &nbsp </p>
                </div>",,html-keyboard-response,130430,training_watch,,wb3a1943
5397.399999856949,"
                <div class=""training""> 
                <img src=""static/images/A_6.svg"" width=""45%""></img>
                <p> Press any key to continue. </p>
                </div>
                ",arrowright,html-keyboard-response,135828,training_response,,wb3a1943
,"
                <div class=""training"">
                <img src=""static/images/D_1.svg"" width=""45%""></img>
                <p> &nbsp </p>
                </div>",,html-keyboard-response,138830,training_watch,,wb3a1943
1821.6999998092651,"
                <div class=""training""> 
                <img src=""static/images/D_1.svg"" width=""45%""></img>
                <p> Press any key to continue. </p>
                </div>
                ",arrowright,html-keyboard-response,140652,training_response,,wb3a1943
,"
                <div class=""training"">
                <img src=""static/images/A_2.svg"" width=""45%""></img>
                <p> &nbsp </p>
                </div>",,html-keyboard-response,143653,training_watch,,wb3a1943
2500.2000000476837,"
                <div class=""training""> 
                <img src=""static/images/A_2.svg"" width=""45%""></img>
                <p> Press any key to continue. </p>
                </div>
                ",arrowright,html-keyboard-response,146156,training_response,,wb3a1943
,"
                <div class=""training"">
                <img src=""static/images/D_2.svg"" width=""45%""></img>
                <p> &nbsp </p>
                </div>",,html-keyboard-response,149157,training_watch,,wb3a1943
2622.399999856949,"
                <div class=""training""> 
                <img src=""static/images/D_2.svg"" width=""45%""></img>
                <p> Press any key to continue. </p>
                </div>
                ",arrowright,html-keyboard-response,151780,training_response,,wb3a1943
,"
                <div class=""training"">
                <img src=""static/images/B_1.svg"" width=""45%""></img>
                <p> &nbsp </p>
                </div>",,html-keyboard-response,154781,training_watch,,wb3a1943
366.0,"
                <div class=""training""> 
                <img src=""static/images/B_1.svg"" width=""45%""></img>
                <p> Press any key to continue. </p>
                </div>
                ",arrowright,html-keyboard-response,155148,training_response,,wb3a1943
,"
                <div class=""training"">
                <img src=""static/images/B_6.svg"" width=""45%""></img>
                <p> &nbsp </p>
                </div>",,html-keyboard-response,158150,training_watch,,wb3a1943
333.89999985694885,"
                <div class=""training""> 
                <img src=""static/images/B_6.svg"" width=""45%""></img>
                <p> Press any key to continue. </p>
                </div>
                ",arrowright,html-keyboard-response,158484,training_response,,wb3a1943
,"
                <div class=""training"">
                <img src=""static/images/D_4.svg"" width=""45%""></img>
                <p> &nbsp </p>
                </div>",,html-keyboard-response,161485,training_watch,,wb3a1943
422.19999980926514,"
                <div class=""training""> 
                <img src=""static/images/D_4.svg"" width=""45%""></img>
                <p> Press any key to continue. </p>
                </div>
                ",arrowright,html-keyboard-response,161908,training_response,,wb3a1943
,"
                <div class=""training"">
                <img src=""static/images/T_2.svg"" width=""45%""></img>
                <p> &nbsp </p>
                </div>",,html-keyboard-response,164910,training_watch,,wb3a1943
901.7000000476837,"
                <div class=""training""> 
                <img src=""static/images/T_2.svg"" width=""45%""></img>
                <p> Press any key to continue. </p>
                </div>
                ",arrowright,html-keyboard-response,165813,training_response,,wb3a1943
,"
                <div class=""training"">
                <img src=""static/images/C_6.svg"" width=""45%""></img>
                <p> &nbsp </p>
                </div>",,html-keyboard-response,168816,training_watch,,wb3a1943
2843.7000000476837,"
                <div class=""training""> 
                <img src=""static/images/C_6.svg"" width=""45%""></img>
                <p> Press any key to continue. </p>
                </div>
                ",arrowright,html-keyboard-response,171661,training_response,,wb3a1943
,"
                <div class=""training"">
                <img src=""static/images/C_1.svg"" width=""45%""></img>
                <p> &nbsp </p>
                </div>",,html-keyboard-response,174664,training_watch,,wb3a1943
699.5,"
                <div class=""training""> 
                <img src=""static/images/C_1.svg"" width=""45%""></img>
                <p> Press any key to continue. </p>
                </div>
                ",arrowright,html-keyboard-response,175365,training_response,,wb3a1943
,"
                <div class=""training"">
                <img src=""static/images/D_3.svg"" width=""45%""></img>
                <p> &nbsp </p>
                </div>",,html-keyboard-response,178367,training_watch,,wb3a1943
627.7999999523163,"
                <div class=""training""> 
                <img src=""static/images/D_3.svg"" width=""45%""></img>
                <p> Press any key to continue. </p>
                </div>
                ",arrowright,html-keyboard-response,178997,training_response,,wb3a1943
,"
                <div class=""training"">
                <img src=""static/images/C_4.svg"" width=""45%""></img>
                <p> &nbsp </p>
                </div>",,html-keyboard-response,182000,training_watch,,wb3a1943
1860.0,"
                <div class=""training""> 
                <img src=""static/images/C_4.svg"" width=""45%""></img>
                <p> Press any key to continue. </p>
                </div>
                ",arrowright,html-keyboard-response,183862,training_response,,wb3a1943
,"
                <div class=""training"">
                <img src=""static/images/A_4.svg"" width=""45%""></img>
                <p> &nbsp </p>
                </div>",,html-keyboard-response,186865,training_watch,,wb3a1943
1115.9000000953674,"
                <div class=""training""> 
                <img src=""static/images/A_4.svg"" width=""45%""></img>
                <p> Press any key to continue. </p>
                </div>
                ",arrowright,html-keyboard-response,187981,training_response,,wb3a1943
21406.400000095367,"
        <div class=""instructions"">
        <p>In this <em>rating</em> phase, two pictures will appear in the center 
        of the screen at the same time.<br>
        <br>
        We will ask you to rate the similarity of the two pictures. When the instruction appears, click a button to record your rating. <br> <br>
        Click the ""1"" key if the pictures are not very similar
        <br> 
        Click the ""9"" key if the pictures are highly similar. <br> 
        Click the other number keys if the similarity is in between these. <br>
        <br>
        Press any key to continue.</p>
        </div>
      ",arrowright,html-keyboard-response,209390,,,wb3a1943
3316.9000000953674,"
      <div class=""training""> You  have finished! Thank you. We have automatically recorded your Participant ID. 
      <br> <br>
      Press any key to advance to an annonymous survey, which we are using to collect demographic data. </div>
      ",arrowright,html-keyboard-response,334637,,,wb3a1943
1193.4000000953674,"
      <div class=""training""> Thank you for finishing the survey! Your answers will help us develop these experiments. 
      <br> 
      <br>
      Press any key to finish. </div>
      ",arrowright,html-keyboard-response,357677,,,wb3a1943
9667.200000047684,"
      <div class=""instructions"">
        <p class=""center""> Welcome to the experiment. <br><br>

        Press any key to begin. <br><br>


        There may be a short delay as the experiment loads. 
        </p>
      </div>
      ", ,html-keyboard-response,9674,,,w829fa17
19016.5,"
        <div class=""instructions"">
          <p>In this experiment, we are interested in understanding how people make similarity judgements. We will ask you to rate the similarity of different pictures. Each picture is a collection of 2-5 shapes of different shading, and will look something like this: <br>
          <img src='static/images/T_1.svg' style=""width:30%;padding:10px;""></img> 
          <br>
          In the <em>familiarization</em> phase, we will present the pictures <b> one at a time </b> so that you can become familiar with them. Simply observe the picture, and when the instruction appears press any key to move on to the next one.<br>
          <br>
          <br>
          In the <em>rating</em> phase, we will present the pictures <b> two at a time</b>, and ask you to rate the similarity of two pictures by clicking a button on the screen. <br>
          <br>
          <br>
          Press any key to continue.</p>
        </div>
      ", ,html-keyboard-response,28693,,,w829fa17
9993.900000095367,"
        <div class=""instructions"">
        <p>In this <em>familiarization</em> phase, we will show you the pictures that we will be using in this experiment <b> one at a time </b> so that you can become familiar with them. There will be 25 pictures. 
        <br>
        <br>
        Simply observe the picture, and when the instruction appears press any key to move on to the next one. <br>
        <br>
        Press any key to continue.</p>
        </div>
      ", ,html-keyboard-response,39193,,,w829fa17
,"
                <div class=""training"">
                <img src=""static/images/T_6.svg"" width=""45%""></img>
                <p> &nbsp </p>
                </div>",,html-keyboard-response,42697,training_watch,,w829fa17
7474.399999856949,"
                <div class=""training""> 
                <img src=""static/images/T_6.svg"" width=""45%""></img>
                <p> Press any key to continue. </p>
                </div>
                ", ,html-keyboard-response,50174,training_response,,w829fa17
,"
                <div class=""training"">
                <img src=""static/images/C_4.svg"" width=""45%""></img>
                <p> &nbsp </p>
                </div>",,html-keyboard-response,53180,training_watch,,w829fa17
984.3999998569489,"
                <div class=""training""> 
                <img src=""static/images/C_4.svg"" width=""45%""></img>
                <p> Press any key to continue. </p>
                </div>
                ", ,html-keyboard-response,54167,training_response,,w829fa17
,"
                <div class=""training"">
                <img src=""static/images/T_4.svg"" width=""45%""></img>
                <p> &nbsp </p>
                </div>",,html-keyboard-response,57170,training_watch,,w829fa17
438.0,"
                <div class=""training""> 
                <img src=""static/images/T_4.svg"" width=""45%""></img>
                <p> Press any key to continue. </p>
                </div>
                ", ,html-keyboard-response,57610,training_response,,w829fa17
,"
                <div class=""training"">
                <img src=""static/images/A_1.svg"" width=""45%""></img>
                <p> &nbsp </p>
                </div>",,html-keyboard-response,60613,training_watch,,w829fa17
402.7000000476837,"
                <div class=""training""> 
                <img src=""static/images/A_1.svg"" width=""45%""></img>
                <p> Press any key to continue. </p>
                </div>
                ", ,html-keyboard-response,61018,training_response,,w829fa17
,"
                <div class=""training"">
                <img src=""static/images/T_2.svg"" width=""45%""></img>
                <p> &nbsp </p>
                </div>",,html-keyboard-response,64020,training_watch,,w829fa17
404.0,"
                <div class=""training""> 
                <img src=""static/images/T_2.svg"" width=""45%""></img>
                <p> Press any key to continue. </p>
                </div>
                ", ,html-keyboard-response,64426,training_response,,w829fa17
,"
                <div class=""training"">
                <img src=""static/images/D_2.svg"" width=""45%""></img>
                <p> &nbsp </p>
                </div>",,html-keyboard-response,67429,training_watch,,w829fa17
363.2999999523163,"
                <div class=""training""> 
                <img src=""static/images/D_2.svg"" width=""45%""></img>
                <p> Press any key to continue. </p>
                </div>
                ", ,html-keyboard-response,67794,training_response,,w829fa17
,"
                <div class=""training"">
                <img src=""static/images/B_3.svg"" width=""45%""></img>
                <p> &nbsp </p>
                </div>",,html-keyboard-response,70797,training_watch,,w829fa17
401.7000000476837,"
                <div class=""training""> 
                <img src=""static/images/B_3.svg"" width=""45%""></img>
                <p> Press any key to continue. </p>
                </div>
                ", ,html-keyboard-response,71200,training_response,,w829fa17
,"
                <div class=""training"">
                <img src=""static/images/T_1.svg"" width=""45%""></img>
                <p> &nbsp </p>
                </div>",,html-keyboard-response,74203,training_watch,,w829fa17
375.7000000476837,"
                <div class=""training""> 
                <img src=""static/images/T_1.svg"" width=""45%""></img>
                <p> Press any key to continue. </p>
                </div>
                ", ,html-keyboard-response,74580,training_response,,w829fa17
,"
                <div class=""training"">
                <img src=""static/images/D_6.svg"" width=""45%""></img>
                <p> &nbsp </p>
                </div>",,html-keyboard-response,77583,training_watch,,w829fa17
1345.4000000953674,"
                <div class=""training""> 
                <img src=""static/images/D_6.svg"" width=""45%""></img>
                <p> Press any key to continue. </p>
                </div>
                ", ,html-keyboard-response,78931,training_response,,w829fa17
,"
                <div class=""training"">
                <img src=""static/images/D_4.svg"" width=""45%""></img>
                <p> &nbsp </p>
                </div>",,html-keyboard-response,81934,training_watch,,w829fa17
594.4000000953674,"
                <div class=""training""> 
                <img src=""static/images/D_4.svg"" width=""45%""></img>
                <p> Press any key to continue. </p>
                </div>
                ", ,html-keyboard-response,82531,training_response,,w829fa17
,"
                <div class=""training"">
                <img src=""static/images/C_5.svg"" width=""45%""></img>
                <p> &nbsp </p>
                </div>",,html-keyboard-response,85534,training_watch,,w829fa17
678.0,"
                <div class=""training""> 
                <img src=""static/images/C_5.svg"" width=""45%""></img>
                <p> Press any key to continue. </p>
                </div>
                ", ,html-keyboard-response,86214,training_response,,w829fa17
,"
                <div class=""training"">
                <img src=""static/images/B_6.svg"" width=""45%""></img>
                <p> &nbsp </p>
                </div>",,html-keyboard-response,89217,training_watch,,w829fa17
580.4000000953674,"
                <div class=""training""> 
                <img src=""static/images/B_6.svg"" width=""45%""></img>
                <p> Press any key to continue. </p>
                </div>
                ", ,html-keyboard-response,89800,training_response,,w829fa17
,"
                <div class=""training"">
                <img src=""static/images/T_3.svg"" width=""45%""></img>
                <p> &nbsp </p>
                </div>",,html-keyboard-response,92803,training_watch,,w829fa17
1593.2000000476837,"
                <div class=""training""> 
                <img src=""static/images/T_3.svg"" width=""45%""></img>
                <p> Press any key to continue. </p>
                </div>
                ", ,html-keyboard-response,94398,training_response,,w829fa17
,"
                <div class=""training"">
                <img src=""static/images/B_5.svg"" width=""45%""></img>
                <p> &nbsp </p>
                </div>",,html-keyboard-response,97400,training_watch,,w829fa17
838.7999999523163,"
                <div class=""training""> 
                <img src=""static/images/B_5.svg"" width=""45%""></img>
                <p> Press any key to continue. </p>
                </div>
                ", ,html-keyboard-response,98241,training_response,,w829fa17
,"
                <div class=""training"">
                <img src=""static/images/B_4.svg"" width=""45%""></img>
                <p> &nbsp </p>
                </div>",,html-keyboard-response,101244,training_watch,,w829fa17
506.2999999523163,"
                <div class=""training""> 
                <img src=""static/images/B_4.svg"" width=""45%""></img>
                <p> Press any key to continue. </p>
                </div>
                ", ,html-keyboard-response,101751,training_response,,w829fa17
,"
                <div class=""training"">
                <img src=""static/images/D_5.svg"" width=""45%""></img>
                <p> &nbsp </p>
                </div>",,html-keyboard-response,104754,training_watch,,w829fa17
609.5,"
                <div class=""training""> 
                <img src=""static/images/D_5.svg"" width=""45%""></img>
                <p> Press any key to continue. </p>
                </div>
                ", ,html-keyboard-response,105366,training_response,,w829fa17
,"
                <div class=""training"">
                <img src=""static/images/D_3.svg"" width=""45%""></img>
                <p> &nbsp </p>
                </div>",,html-keyboard-response,108369,training_watch,,w829fa17
563.8999998569489,"
                <div class=""training""> 
                <img src=""static/images/D_3.svg"" width=""45%""></img>
                <p> Press any key to continue. </p>
                </div>
                ", ,html-keyboard-response,108934,training_response,,w829fa17
,"
                <div class=""training"">
                <img src=""static/images/B_1.svg"" width=""45%""></img>
                <p> &nbsp </p>
                </div>",,html-keyboard-response,111937,training_watch,,w829fa17
946.5,"
                <div class=""training""> 
                <img src=""static/images/B_1.svg"" width=""45%""></img>
                <p> Press any key to continue. </p>
                </div>
                ", ,html-keyboard-response,112886,training_response,,w829fa17
,"
                <div class=""training"">
                <img src=""static/images/A_5.svg"" width=""45%""></img>
                <p> &nbsp </p>
                </div>",,html-keyboard-response,115889,training_watch,,w829fa17
656.0,"
                <div class=""training""> 
                <img src=""static/images/A_5.svg"" width=""45%""></img>
                <p> Press any key to continue. </p>
                </div>
                ", ,html-keyboard-response,116547,training_response,,w829fa17
,"
                <div class=""training"">
                <img src=""static/images/A_4.svg"" width=""45%""></img>
                <p> &nbsp </p>
                </div>",,html-keyboard-response,119550,training_watch,,w829fa17
646.2000000476837,"
                <div class=""training""> 
                <img src=""static/images/A_4.svg"" width=""45%""></img>
                <p> Press any key to continue. </p>
                </div>
                ", ,html-keyboard-response,120198,training_response,,w829fa17
,"
                <div class=""training"">
                <img src=""static/images/A_2.svg"" width=""45%""></img>
                <p> &nbsp </p>
                </div>",,html-keyboard-response,123201,training_watch,,w829fa17
561.4000000953674,"
                <div class=""training""> 
                <img src=""static/images/A_2.svg"" width=""45%""></img>
                <p> Press any key to continue. </p>
                </div>
                ", ,html-keyboard-response,123763,training_response,,w829fa17
,"
                <div class=""training"">
                <img src=""static/images/C_1.svg"" width=""45%""></img>
                <p> &nbsp </p>
                </div>",,html-keyboard-response,126764,training_watch,,w829fa17
677.6999998092651,"
                <div class=""training""> 
                <img src=""static/images/C_1.svg"" width=""45%""></img>
                <p> Press any key to continue. </p>
                </div>
                ", ,html-keyboard-response,127443,training_response,,w829fa17
,"
                <div class=""training"">
                <img src=""static/images/A_6.svg"" width=""45%""></img>
                <p> &nbsp </p>
                </div>",,html-keyboard-response,130445,training_watch,,w829fa17
801.2999999523163,"
                <div class=""training""> 
                <img src=""static/images/A_6.svg"" width=""45%""></img>
                <p> Press any key to continue. </p>
                </div>
                ", ,html-keyboard-response,131247,training_response,,w829fa17
,"
                <div class=""training"">
                <img src=""static/images/D_1.svg"" width=""45%""></img>
                <p> &nbsp </p>
                </div>",,html-keyboard-response,134248,training_watch,,w829fa17
1513.2999999523163,"
                <div class=""training""> 
                <img src=""static/images/D_1.svg"" width=""45%""></img>
                <p> Press any key to continue. </p>
                </div>
                ", ,html-keyboard-response,135762,training_response,,w829fa17
,"
                <div class=""training"">
                <img src=""static/images/T_5.svg"" width=""45%""></img>
                <p> &nbsp </p>
                </div>",,html-keyboard-response,138765,training_watch,,w829fa17
419.10000014305115,"
                <div class=""training""> 
                <img src=""static/images/T_5.svg"" width=""45%""></img>
                <p> Press any key to continue. </p>
                </div>
                ", ,html-keyboard-response,139186,training_response,,w829fa17
8994.5,"
        <div class=""instructions"">
        <p>In this <em>rating</em> phase, two pictures will appear in the center 
        of the screen at the same time.<br>
        <br>
        We will ask you to rate the similarity of the two pictures. When the instruction appears, click a button to record your rating. <br> <br>
        Click the ""1"" key if the pictures are not very similar
        <br> 
        Click the ""9"" key if the pictures are highly similar. <br> 
        Click the other number keys if the similarity is in between these. <br>
        <br>
        Press any key to continue.</p>
        </div>
      ", ,html-keyboard-response,148182,,,w829fa17
3972.600000143051,"
      <div class=""training""> You  have finished! Thank you. We have automatically recorded your Participant ID. 
      <br> <br>
      Press any key to advance to an annonymous survey, which we are using to collect demographic data. </div>
      ", ,html-keyboard-response,309876,,,w829fa17
1805.1999998092651,"
      <div class=""training""> Thank you for finishing the survey! Your answers will help us develop these experiments. 
      <br> 
      <br>
      Press any key to finish. </div>
      ", ,html-keyboard-response,332990,,,w829fa17
252218.09999996424,"
      <div class=""instructions"">
        <p class=""center""> Welcome to the experiment. <br><br>

        Press any key to begin. <br><br>


        There may be a short delay as the experiment loads. 
        </p>
      </div>
      ", ,html-keyboard-response,252224,,,w039ba33
356274.1999999881,"
        <div class=""instructions"">
          <p>In this experiment, we are interested in understanding how people make similarity judgements. We will ask you to rate the similarity of different pictures. Each picture is a collection of 2-5 shapes of different shading, and will look something like this: <br>
          <img src='static/images/T_1.svg' style=""width:30%;padding:10px;""></img> 
          <br>
          In the <em>familiarization</em> phase, we will present the pictures <b> one at a time </b> so that you can become familiar with them. Simply observe the picture, and when the instruction appears press any key to move on to the next one.<br>
          <br>
          <br>
          In the <em>rating</em> phase, we will present the pictures <b> two at a time</b>, and ask you to rate the similarity of two pictures by clicking a button on the screen. <br>
          <br>
          <br>
          Press any key to continue.</p>
        </div>
      ", ,html-keyboard-response,608497,,,w039ba33
8241.199999988079,"
        <div class=""instructions"">
        <p>In this <em>familiarization</em> phase, we will show you the pictures that we will be using in this experiment <b> one at a time </b> so that you can become familiar with them. There will be 25 pictures. 
        <br>
        <br>
        Simply observe the picture, and when the instruction appears press any key to move on to the next one. <br>
        <br>
        Press any key to continue.</p>
        </div>
      ", ,html-keyboard-response,617249,,,w039ba33
,"
                <div class=""training"">
                <img src=""static/images/A_1.svg"" width=""45%""></img>
                <p> &nbsp </p>
                </div>",,html-keyboard-response,620759,training_watch,,w039ba33
3799.7999999523163,"
                <div class=""training""> 
                <img src=""static/images/A_1.svg"" width=""45%""></img>
                <p> Press any key to continue. </p>
                </div>
                ", ,html-keyboard-response,624562,training_response,,w039ba33
,"
                <div class=""training"">
                <img src=""static/images/C_1.svg"" width=""45%""></img>
                <p> &nbsp </p>
                </div>",,html-keyboard-response,627572,training_watch,,w039ba33
1516.300000011921,"
                <div class=""training""> 
                <img src=""static/images/C_1.svg"" width=""45%""></img>
                <p> Press any key to continue. </p>
                </div>
                ", ,html-keyboard-response,629091,training_response,,w039ba33
,"
                <div class=""training"">
                <img src=""static/images/T_4.svg"" width=""45%""></img>
                <p> &nbsp </p>
                </div>",,html-keyboard-response,632101,training_watch,,w039ba33
1095.699999988079,"
                <div class=""training""> 
                <img src=""static/images/T_4.svg"" width=""45%""></img>
                <p> Press any key to continue. </p>
                </div>
                ", ,html-keyboard-response,633200,training_response,,w039ba33
,"
                <div class=""training"">
                <img src=""static/images/B_1.svg"" width=""45%""></img>
                <p> &nbsp </p>
                </div>",,html-keyboard-response,636205,training_watch,,w039ba33
1078.8999999761581,"
                <div class=""training""> 
                <img src=""static/images/B_1.svg"" width=""45%""></img>
                <p> Press any key to continue. </p>
                </div>
                ", ,html-keyboard-response,637288,training_response,,w039ba33
,"
                <div class=""training"">
                <img src=""static/images/A_3.svg"" width=""45%""></img>
                <p> &nbsp </p>
                </div>",,html-keyboard-response,640293,training_watch,,w039ba33
1271.300000011921,"
                <div class=""training""> 
                <img src=""static/images/A_3.svg"" width=""45%""></img>
                <p> Press any key to continue. </p>
                </div>
                ", ,html-keyboard-response,641567,training_response,,w039ba33
,"
                <div class=""training"">
                <img src=""static/images/B_2.svg"" width=""45%""></img>
                <p> &nbsp </p>
                </div>",,html-keyboard-response,644575,training_watch,,w039ba33
1966.3999999761581,"
                <div class=""training""> 
                <img src=""static/images/B_2.svg"" width=""45%""></img>
                <p> Press any key to continue. </p>
                </div>
                ", ,html-keyboard-response,646545,training_response,,w039ba33
,"
                <div class=""training"">
                <img src=""static/images/D_6.svg"" width=""45%""></img>
                <p> &nbsp </p>
                </div>",,html-keyboard-response,649552,training_watch,,w039ba33
966.5,"
                <div class=""training""> 
                <img src=""static/images/D_6.svg"" width=""45%""></img>
                <p> Press any key to continue. </p>
                </div>
                ", ,html-keyboard-response,650522,training_response,,w039ba33
,"
                <div class=""training"">
                <img src=""static/images/A_5.svg"" width=""45%""></img>
                <p> &nbsp </p>
                </div>",,html-keyboard-response,653528,training_watch,,w039ba33
119.80000001192093,"
                <div class=""training""> 
                <img src=""static/images/A_5.svg"" width=""45%""></img>
                <p> Press any key to continue. </p>
                </div>
                ", ,html-keyboard-response,653650,training_response,,w039ba33
,"
                <div class=""training"">
                <img src=""static/images/C_5.svg"" width=""45%""></img>
                <p> &nbsp </p>
                </div>",,html-keyboard-response,656656,training_watch,,w039ba33
834.0,"
                <div class=""training""> 
                <img src=""static/images/C_5.svg"" width=""45%""></img>
                <p> Press any key to continue. </p>
                </div>
                ", ,html-keyboard-response,657493,training_response,,w039ba33
,"
                <div class=""training"">
                <img src=""static/images/D_5.svg"" width=""45%""></img>
                <p> &nbsp </p>
                </div>",,html-keyboard-response,660500,training_watch,,w039ba33
360.9000000357628,"
                <div class=""training""> 
                <img src=""static/images/D_5.svg"" width=""45%""></img>
                <p> Press any key to continue. </p>
                </div>
                ", ,html-keyboard-response,660865,training_response,,w039ba33
,"
                <div class=""training"">
                <img src=""static/images/B_5.svg"" width=""45%""></img>
                <p> &nbsp </p>
                </div>",,html-keyboard-response,663871,training_watch,,w039ba33
983.0,"
                <div class=""training""> 
                <img src=""static/images/B_5.svg"" width=""45%""></img>
                <p> Press any key to continue. </p>
                </div>
                ", ,html-keyboard-response,664857,training_response,,w039ba33
,"
                <div class=""training"">
                <img src=""static/images/D_1.svg"" width=""45%""></img>
                <p> &nbsp </p>
                </div>",,html-keyboard-response,667869,training_watch,,w039ba33
480.9000000357628,"
                <div class=""training""> 
                <img src=""static/images/D_1.svg"" width=""45%""></img>
                <p> Press any key to continue. </p>
                </div>
                ", ,html-keyboard-response,668354,training_response,,w039ba33
,"
                <div class=""training"">
                <img src=""static/images/A_2.svg"" width=""45%""></img>
                <p> &nbsp </p>
                </div>",,html-keyboard-response,671358,training_watch,,w039ba33
1141.800000011921,"
                <div class=""training""> 
                <img src=""static/images/A_2.svg"" width=""45%""></img>
                <p> Press any key to continue. </p>
                </div>
                ", ,html-keyboard-response,672502,training_response,,w039ba33
,"
                <div class=""training"">
                <img src=""static/images/C_2.svg"" width=""45%""></img>
                <p> &nbsp </p>
                </div>",,html-keyboard-response,675512,training_watch,,w039ba33
675.6999999880791,"
                <div class=""training""> 
                <img src=""static/images/C_2.svg"" width=""45%""></img>
                <p> Press any key to continue. </p>
                </div>
                ", ,html-keyboard-response,676190,training_response,,w039ba33
,"
                <div class=""training"">
                <img src=""static/images/T_5.svg"" width=""45%""></img>
                <p> &nbsp </p>
                </div>",,html-keyboard-response,679200,training_watch,,w039ba33
97.5,"
                <div class=""training""> 
                <img src=""static/images/T_5.svg"" width=""45%""></img>
                <p> Press any key to continue. </p>
                </div>
                ", ,html-keyboard-response,679301,training_response,,w039ba33
,"
                <div class=""training"">
                <img src=""static/images/D_2.svg"" width=""45%""></img>
                <p> &nbsp </p>
                </div>",,html-keyboard-response,682312,training_watch,,w039ba33
2733.199999988079,"
                <div class=""training""> 
                <img src=""static/images/D_2.svg"" width=""45%""></img>
                <p> Press any key to continue. </p>
                </div>
                ", ,html-keyboard-response,685048,training_response,,w039ba33
,"
                <div class=""training"">
                <img src=""static/images/C_6.svg"" width=""45%""></img>
                <p> &nbsp </p>
                </div>",,html-keyboard-response,688055,training_watch,,w039ba33
484.7999999523163,"
                <div class=""training""> 
                <img src=""static/images/C_6.svg"" width=""45%""></img>
                <p> Press any key to continue. </p>
                </div>
                ", ,html-keyboard-response,688542,training_response,,w039ba33
,"
                <div class=""training"">
                <img src=""static/images/A_4.svg"" width=""45%""></img>
                <p> &nbsp </p>
                </div>",,html-keyboard-response,691552,training_watch,,w039ba33
976.8000000119209,"
                <div class=""training""> 
                <img src=""static/images/A_4.svg"" width=""45%""></img>
                <p> Press any key to continue. </p>
                </div>
                ", ,html-keyboard-response,692532,training_response,,w039ba33
,"
                <div class=""training"">
                <img src=""static/images/T_1.svg"" width=""45%""></img>
                <p> &nbsp </p>
                </div>",,html-keyboard-response,695539,training_watch,,w039ba33
2469.2000000476837,"
                <div class=""training""> 
                <img src=""static/images/T_1.svg"" width=""45%""></img>
                <p> Press any key to continue. </p>
                </div>
                ", ,html-keyboard-response,698011,training_response,,w039ba33
,"
                <div class=""training"">
                <img src=""static/images/B_4.svg"" width=""45%""></img>
                <p> &nbsp </p>
                </div>",,html-keyboard-response,701022,training_watch,,w039ba33
2037.199999988079,"
                <div class=""training""> 
                <img src=""static/images/B_4.svg"" width=""45%""></img>
                <p> Press any key to continue. </p>
                </div>
                ", ,html-keyboard-response,703062,training_response,,w039ba33
,"
                <div class=""training"">
                <img src=""static/images/A_6.svg"" width=""45%""></img>
                <p> &nbsp </p>
                </div>",,html-keyboard-response,706072,training_watch,,w039ba33
1550.7000000476837,"
                <div class=""training""> 
                <img src=""static/images/A_6.svg"" width=""45%""></img>
                <p> Press any key to continue. </p>
                </div>
                ", ,html-keyboard-response,707626,training_response,,w039ba33
,"
                <div class=""training"">
                <img src=""static/images/B_6.svg"" width=""45%""></img>
                <p> &nbsp </p>
                </div>",,html-keyboard-response,710634,training_watch,,w039ba33
614.7999999523163,"
                <div class=""training""> 
                <img src=""static/images/B_6.svg"" width=""45%""></img>
                <p> Press any key to continue. </p>
                </div>
                ", ,html-keyboard-response,711251,training_response,,w039ba33
,"
                <div class=""training"">
                <img src=""static/images/B_3.svg"" width=""45%""></img>
                <p> &nbsp </p>
                </div>",,html-keyboard-response,714257,training_watch,,w039ba33
341.0,"
                <div class=""training""> 
                <img src=""static/images/B_3.svg"" width=""45%""></img>
                <p> Press any key to continue. </p>
                </div>
                ", ,html-keyboard-response,714601,training_response,,w039ba33
,"
                <div class=""training"">
                <img src=""static/images/T_6.svg"" width=""45%""></img>
                <p> &nbsp </p>
                </div>",,html-keyboard-response,717609,training_watch,,w039ba33
902.3000000119209,"
                <div class=""training""> 
                <img src=""static/images/T_6.svg"" width=""45%""></img>
                <p> Press any key to continue. </p>
                </div>
                ", ,html-keyboard-response,718515,training_response,,w039ba33
,"
                <div class=""training"">
                <img src=""static/images/C_4.svg"" width=""45%""></img>
                <p> &nbsp </p>
                </div>",,html-keyboard-response,721523,training_watch,,w039ba33
800.0999999642372,"
                <div class=""training""> 
                <img src=""static/images/C_4.svg"" width=""45%""></img>
                <p> Press any key to continue. </p>
                </div>
                ", ,html-keyboard-response,722326,training_response,,w039ba33
14190.100000023842,"
        <div class=""instructions"">
        <p>In this <em>rating</em> phase, two pictures will appear in the center 
        of the screen at the same time.<br>
        <br>
        We will ask you to rate the similarity of the two pictures. When the instruction appears, click a button to record your rating. <br> <br>
        Click the ""1"" key if the pictures are not very similar
        <br> 
        Click the ""9"" key if the pictures are highly similar. <br> 
        Click the other number keys if the similarity is in between these. <br>
        <br>
        Press any key to continue.</p>
        </div>
      ", ,html-keyboard-response,736513,,,w039ba33
4259.099999964237,"
      <div class=""training""> You  have finished! Thank you. We have automatically recorded your Participant ID. 
      <br> <br>
      Press any key to advance to an annonymous survey, which we are using to collect demographic data. </div>
      ", ,html-keyboard-response,941495,,,w039ba33
14424.799999952316,"
      <div class=""training""> Thank you for finishing the survey! Your answers will help us develop these experiments. 
      <br> 
      <br>
      Press any key to finish. </div>
      ",enter,html-keyboard-response,976778,,,w039ba33
2107.8999996185303,"
      <div class=""instructions"">
        <p class=""center""> Welcome to the experiment. <br><br>

        Press any key to begin. <br><br>


        There may be a short delay as the experiment loads. 
        </p>
      </div>
      ",d,html-keyboard-response,2110,,,wa33ff3f
13878.199999809265,"
        <div class=""instructions"">
          <p>In this experiment, we are interested in understanding how people make similarity judgements. We will ask you to rate the similarity of different pictures. Each picture is a collection of 2-5 shapes of different shading, and will look something like this: <br>
          <img src='static/images/T_1.svg' style=""width:30%;padding:10px;""></img> 
          <br>
          In the <em>familiarization</em> phase, we will present the pictures <b> one at a time </b> so that you can become familiar with them. Simply observe the picture, and when the instruction appears press any key to move on to the next one.<br>
          <br>
          <br>
          In the <em>rating</em> phase, we will present the pictures <b> two at a time</b>, and ask you to rate the similarity of two pictures by clicking a button on the screen. <br>
          <br>
          <br>
          Press any key to continue.</p>
        </div>
      ",d,html-keyboard-response,15989,,,wa33ff3f
5298.299999237061,"
        <div class=""instructions"">
        <p>In this <em>familiarization</em> phase, we will show you the pictures that we will be using in this experiment <b> one at a time </b> so that you can become familiar with them. There will be 25 pictures. 
        <br>
        <br>
        Simply observe the picture, and when the instruction appears press any key to move on to the next one. <br>
        <br>
        Press any key to continue.</p>
        </div>
      ",d,html-keyboard-response,21789,,,wa33ff3f
,"
                <div class=""training"">
                <img src=""static/images/A_4.svg"" width=""45%""></img>
                <p> &nbsp </p>
                </div>",,html-keyboard-response,25296,training_watch,,wa33ff3f
1005.0,"
                <div class=""training""> 
                <img src=""static/images/A_4.svg"" width=""45%""></img>
                <p> Press any key to continue. </p>
                </div>
                ",d,html-keyboard-response,26302,training_response,,wa33ff3f
,"
                <div class=""training"">
                <img src=""static/images/C_6.svg"" width=""45%""></img>
                <p> &nbsp </p>
                </div>",,html-keyboard-response,29309,training_watch,,wa33ff3f
373.9000005722046,"
                <div class=""training""> 
                <img src=""static/images/C_6.svg"" width=""45%""></img>
                <p> Press any key to continue. </p>
                </div>
                ",d,html-keyboard-response,29684,training_response,,wa33ff3f
,"
                <div class=""training"">
                <img src=""static/images/C_5.svg"" width=""45%""></img>
                <p> &nbsp </p>
                </div>",,html-keyboard-response,32687,training_watch,,wa33ff3f
572.8000001907349,"
                <div class=""training""> 
                <img src=""static/images/C_5.svg"" width=""45%""></img>
                <p> Press any key to continue. </p>
                </div>
                ",d,html-keyboard-response,33260,training_response,,wa33ff3f
,"
                <div class=""training"">
                <img src=""static/images/B_1.svg"" width=""45%""></img>
                <p> &nbsp </p>
                </div>",,html-keyboard-response,36262,training_watch,,wa33ff3f
354.6000003814697,"
                <div class=""training""> 
                <img src=""static/images/B_1.svg"" width=""45%""></img>
                <p> Press any key to continue. </p>
                </div>
                ",d,html-keyboard-response,36618,training_response,,wa33ff3f
,"
                <div class=""training"">
                <img src=""static/images/A_6.svg"" width=""45%""></img>
                <p> &nbsp </p>
                </div>",,html-keyboard-response,39623,training_watch,,wa33ff3f
1059.6999998092651,"
                <div class=""training""> 
                <img src=""static/images/A_6.svg"" width=""45%""></img>
                <p> Press any key to continue. </p>
                </div>
                ",d,html-keyboard-response,40684,training_response,,wa33ff3f
,"
                <div class=""training"">
                <img src=""static/images/A_1.svg"" width=""45%""></img>
                <p> &nbsp </p>
                </div>",,html-keyboard-response,43687,training_watch,,wa33ff3f
327.19999980926514,"
                <div class=""training""> 
                <img src=""static/images/A_1.svg"" width=""45%""></img>
                <p> Press any key to continue. </p>
                </div>
                ",d,html-keyboard-response,44015,training_response,,wa33ff3f
,"
                <div class=""training"">
                <img src=""static/images/D_1.svg"" width=""45%""></img>
                <p> &nbsp </p>
                </div>",,html-keyboard-response,47019,training_watch,,wa33ff3f
378.8999996185303,"
                <div class=""training""> 
                <img src=""static/images/D_1.svg"" width=""45%""></img>
                <p> Press any key to continue. </p>
                </div>
                ",d,html-keyboard-response,47399,training_response,,wa33ff3f
,"
                <div class=""training"">
                <img src=""static/images/B_5.svg"" width=""45%""></img>
                <p> &nbsp </p>
                </div>",,html-keyboard-response,50403,training_watch,,wa33ff3f
414.5,"
                <div class=""training""> 
                <img src=""static/images/B_5.svg"" width=""45%""></img>
                <p> Press any key to continue. </p>
                </div>
                ",d,html-keyboard-response,50818,training_response,,wa33ff3f
,"
                <div class=""training"">
                <img src=""static/images/D_2.svg"" width=""45%""></img>
                <p> &nbsp </p>
                </div>",,html-keyboard-response,53822,training_watch,,wa33ff3f
325.5,"
                <div class=""training""> 
                <img src=""static/images/D_2.svg"" width=""45%""></img>
                <p> Press any key to continue. </p>
                </div>
                ",d,html-keyboard-response,54148,training_response,,wa33ff3f
,"
                <div class=""training"">
                <img src=""static/images/T_6.svg"" width=""45%""></img>
                <p> &nbsp </p>
                </div>",,html-keyboard-response,57154,training_watch,,wa33ff3f
579.0,"
                <div class=""training""> 
                <img src=""static/images/T_6.svg"" width=""45%""></img>
                <p> Press any key to continue. </p>
                </div>
                ",d,html-keyboard-response,57734,training_response,,wa33ff3f
,"
                <div class=""training"">
                <img src=""static/images/A_5.svg"" width=""45%""></img>
                <p> &nbsp </p>
                </div>",,html-keyboard-response,60738,training_watch,,wa33ff3f
481.5,"
                <div class=""training""> 
                <img src=""static/images/A_5.svg"" width=""45%""></img>
                <p> Press any key to continue. </p>
                </div>
                ",d,html-keyboard-response,61220,training_response,,wa33ff3f
,"
                <div class=""training"">
                <img src=""static/images/C_4.svg"" width=""45%""></img>
                <p> &nbsp </p>
                </div>",,html-keyboard-response,64224,training_watch,,wa33ff3f
490.5,"
                <div class=""training""> 
                <img src=""static/images/C_4.svg"" width=""45%""></img>
                <p> Press any key to continue. </p>
                </div>
                ",d,html-keyboard-response,64715,training_response,,wa33ff3f
,"
                <div class=""training"">
                <img src=""static/images/T_3.svg"" width=""45%""></img>
                <p> &nbsp </p>
                </div>",,html-keyboard-response,67719,training_watch,,wa33ff3f
886.8000001907349,"
                <div class=""training""> 
                <img src=""static/images/T_3.svg"" width=""45%""></img>
                <p> Press any key to continue. </p>
                </div>
                ",d,html-keyboard-response,68606,training_response,,wa33ff3f
,"
                <div class=""training"">
                <img src=""static/images/T_4.svg"" width=""45%""></img>
                <p> &nbsp </p>
                </div>",,html-keyboard-response,71608,training_watch,,wa33ff3f
609.9000005722046,"
                <div class=""training""> 
                <img src=""static/images/T_4.svg"" width=""45%""></img>
                <p> Press any key to continue. </p>
                </div>
                ",d,html-keyboard-response,72218,training_response,,wa33ff3f
,"
                <div class=""training"">
                <img src=""static/images/T_1.svg"" width=""45%""></img>
                <p> &nbsp </p>
                </div>",,html-keyboard-response,75224,training_watch,,wa33ff3f
441.9000005722046,"
                <div class=""training""> 
                <img src=""static/images/T_1.svg"" width=""45%""></img>
                <p> Press any key to continue. </p>
                </div>
                ",d,html-keyboard-response,75667,training_response,,wa33ff3f
,"
                <div class=""training"">
                <img src=""static/images/B_4.svg"" width=""45%""></img>
                <p> &nbsp </p>
                </div>",,html-keyboard-response,78672,training_watch,,wa33ff3f
348.4000005722046,"
                <div class=""training""> 
                <img src=""static/images/B_4.svg"" width=""45%""></img>
                <p> Press any key to continue. </p>
                </div>
                ",d,html-keyboard-response,79021,training_response,,wa33ff3f
,"
                <div class=""training"">
                <img src=""static/images/T_5.svg"" width=""45%""></img>
                <p> &nbsp </p>
                </div>",,html-keyboard-response,82027,training_watch,,wa33ff3f
414.1000003814697,"
                <div class=""training""> 
                <img src=""static/images/T_5.svg"" width=""45%""></img>
                <p> Press any key to continue. </p>
                </div>
                ",d,html-keyboard-response,82442,training_response,,wa33ff3f
,"
                <div class=""training"">
                <img src=""static/images/C_1.svg"" width=""45%""></img>
                <p> &nbsp </p>
                </div>",,html-keyboard-response,85446,training_watch,,wa33ff3f
338.5,"
                <div class=""training""> 
                <img src=""static/images/C_1.svg"" width=""45%""></img>
                <p> Press any key to continue. </p>
                </div>
                ",d,html-keyboard-response,85786,training_response,,wa33ff3f
,"
                <div class=""training"">
                <img src=""static/images/A_3.svg"" width=""45%""></img>
                <p> &nbsp </p>
                </div>",,html-keyboard-response,88789,training_watch,,wa33ff3f
605.6999998092651,"
                <div class=""training""> 
                <img src=""static/images/A_3.svg"" width=""45%""></img>
                <p> Press any key to continue. </p>
                </div>
                ",d,html-keyboard-response,89396,training_response,,wa33ff3f
,"
                <div class=""training"">
                <img src=""static/images/C_3.svg"" width=""45%""></img>
                <p> &nbsp </p>
                </div>",,html-keyboard-response,92400,training_watch,,wa33ff3f
497.79999923706055,"
                <div class=""training""> 
                <img src=""static/images/C_3.svg"" width=""45%""></img>
                <p> Press any key to continue. </p>
                </div>
                ",d,html-keyboard-response,92898,training_response,,wa33ff3f
,"
                <div class=""training"">
                <img src=""static/images/D_5.svg"" width=""45%""></img>
                <p> &nbsp </p>
                </div>",,html-keyboard-response,95901,training_watch,,wa33ff3f
337.5999994277954,"
                <div class=""training""> 
                <img src=""static/images/D_5.svg"" width=""45%""></img>
                <p> Press any key to continue. </p>
                </div>
                ",d,html-keyboard-response,96239,training_response,,wa33ff3f
,"
                <div class=""training"">
                <img src=""static/images/D_6.svg"" width=""45%""></img>
                <p> &nbsp </p>
                </div>",,html-keyboard-response,99244,training_watch,,wa33ff3f
398.79999923706055,"
                <div class=""training""> 
                <img src=""static/images/D_6.svg"" width=""45%""></img>
                <p> Press any key to continue. </p>
                </div>
                ",d,html-keyboard-response,99644,training_response,,wa33ff3f
,"
                <div class=""training"">
                <img src=""static/images/B_2.svg"" width=""45%""></img>
                <p> &nbsp </p>
                </div>",,html-keyboard-response,102645,training_watch,,wa33ff3f
515.5999994277954,"
                <div class=""training""> 
                <img src=""static/images/B_2.svg"" width=""45%""></img>
                <p> Press any key to continue. </p>
                </div>
                ",d,html-keyboard-response,103162,training_response,,wa33ff3f
,"
                <div class=""training"">
                <img src=""static/images/B_6.svg"" width=""45%""></img>
                <p> &nbsp </p>
                </div>",,html-keyboard-response,106167,training_watch,,wa33ff3f
372.3999996185303,"
                <div class=""training""> 
                <img src=""static/images/B_6.svg"" width=""45%""></img>
                <p> Press any key to continue. </p>
                </div>
                ",d,html-keyboard-response,106540,training_response,,wa33ff3f
,"
                <div class=""training"">
                <img src=""static/images/C_2.svg"" width=""45%""></img>
                <p> &nbsp </p>
                </div>",,html-keyboard-response,109541,training_watch,,wa33ff3f
453.6000003814697,"
                <div class=""training""> 
                <img src=""static/images/C_2.svg"" width=""45%""></img>
                <p> Press any key to continue. </p>
                </div>
                ",d,html-keyboard-response,109996,training_response,,wa33ff3f
12198.699999809265,"
        <div class=""instructions"">
        <p>In this <em>rating</em> phase, two pictures will appear in the center 
        of the screen at the same time.<br>
        <br>
        We will ask you to rate the similarity of the two pictures. When the instruction appears, click a button to record your rating. <br> <br>
        Click the ""1"" key if the pictures are not very similar
        <br> 
        Click the ""9"" key if the pictures are highly similar. <br> 
        Click the other number keys if the similarity is in between these. <br>
        <br>
        Press any key to continue.</p>
        </div>
      ", ,html-keyboard-response,122195,,,wa33ff3f
3925.800000190735,"
      <div class=""training""> You  have finished! Thank you. We have automatically recorded your Participant ID. 
      <br> <br>
      Press any key to advance to an annonymous survey, which we are using to collect demographic data. </div>
      ",h,html-keyboard-response,323038,,,wa33ff3f
2232.1000003814697,"
      <div class=""training""> Thank you for finishing the survey! Your answers will help us develop these experiments. 
      <br> 
      <br>
      Press any key to finish. </div>
      ",j,html-keyboard-response,338202,,,wa33ff3f
2179.199999988079,"
      <div class=""instructions"">
        <p class=""center""> Welcome to the experiment. <br><br>

        Press any key to begin. <br><br>


        There may be a short delay as the experiment loads. 
        </p>
      </div>
      ",k,html-keyboard-response,2182,,,wdb435de
54093.59999999404,"
        <div class=""instructions"">
          <p>In this experiment, we are interested in understanding how people make similarity judgements. We will ask you to rate the similarity of different pictures. Each picture is a collection of 2-5 shapes of different shading, and will look something like this: <br>
          <img src='static/images/T_1.svg' style=""width:30%;padding:10px;""></img> 
          <br>
          In the <em>familiarization</em> phase, we will present the pictures <b> one at a time </b> so that you can become familiar with them. Simply observe the picture, and when the instruction appears press any key to move on to the next one.<br>
          <br>
          <br>
          In the <em>rating</em> phase, we will present the pictures <b> two at a time</b>, and ask you to rate the similarity of two pictures by clicking a button on the screen. <br>
          <br>
          <br>
          Press any key to continue.</p>
        </div>
      ", ,html-keyboard-response,56277,,,wdb435de
6858.4000000059605,"
        <div class=""instructions"">
        <p>In this <em>familiarization</em> phase, we will show you the pictures that we will be using in this experiment <b> one at a time </b> so that you can become familiar with them. There will be 25 pictures. 
        <br>
        <br>
        Simply observe the picture, and when the instruction appears press any key to move on to the next one. <br>
        <br>
        Press any key to continue.</p>
        </div>
      ",alt,html-keyboard-response,63637,,,wdb435de
,"
                <div class=""training"">
                <img src=""static/images/A_4.svg"" width=""45%""></img>
                <p> &nbsp </p>
                </div>",,html-keyboard-response,68843,training_watch,,wdb435de
18415.90000000596,"
                <div class=""training""> 
                <img src=""static/images/A_4.svg"" width=""45%""></img>
                <p> Press any key to continue. </p>
                </div>
                ", ,html-keyboard-response,87260,training_response,,wdb435de
,"
                <div class=""training"">
                <img src=""static/images/B_3.svg"" width=""45%""></img>
                <p> &nbsp </p>
                </div>",,html-keyboard-response,90264,training_watch,,wdb435de
883.4000000059605,"
                <div class=""training""> 
                <img src=""static/images/B_3.svg"" width=""45%""></img>
                <p> Press any key to continue. </p>
                </div>
                ", ,html-keyboard-response,91148,training_response,,wdb435de
,"
                <div class=""training"">
                <img src=""static/images/D_2.svg"" width=""45%""></img>
                <p> &nbsp </p>
                </div>",,html-keyboard-response,94150,training_watch,,wdb435de
492.69999998807907,"
                <div class=""training""> 
                <img src=""static/images/D_2.svg"" width=""45%""></img>
                <p> Press any key to continue. </p>
                </div>
                ", ,html-keyboard-response,94644,training_response,,wdb435de
,"
                <div class=""training"">
                <img src=""static/images/B_5.svg"" width=""45%""></img>
                <p> &nbsp </p>
                </div>",,html-keyboard-response,97647,training_watch,,wdb435de
460.19999998807907,"
                <div class=""training""> 
                <img src=""static/images/B_5.svg"" width=""45%""></img>
                <p> Press any key to continue. </p>
                </div>
                ", ,html-keyboard-response,98108,training_response,,wdb435de
,"
                <div class=""training"">
                <img src=""static/images/D_1.svg"" width=""45%""></img>
                <p> &nbsp </p>
                </div>",,html-keyboard-response,101110,training_watch,,wdb435de
988.2000000178814,"
                <div class=""training""> 
                <img src=""static/images/D_1.svg"" width=""45%""></img>
